File: V6_SAXS/data/profiles/Frontscattering_Polymer_stretch.txt
133.3333	16351.4
266.6667	15850.5
400.0000	16090.9
533.3333	16055.9
666.6667	16123.9
800.0000	16323
933.3333	16279.9
1066.67	16040.8
1200	16180.2
1333.33	16579.6
1466.67	16332.6
1600	16295.3
1733.33	16970.4
1866.67	17557.6
2000	18135.2
2133.33	18953.4
2266.67	19355.8
2400	19746.6
2533.33	20069
2666.67	20165.2
2800	20226.7
2933.33	20466.8
3066.67	20716.9
3200	21082.4
3333.33	20940.5
3466.67	21239.3
3600	21627.7
3733.33	21876.1
3866.67	22252.2
4000	22673.3
4133.33	22880.7
4266.67	23187.4
4400	23614.4
4533.33	23866.5
4666.67	24068.9
4800	24527.2
4933.33	24826.9
5066.67	25166.4
5200	25697.8
5333.33	26145.3
5466.67	26548.7
5600	26994.8
5733.33	27386
5866.67	27863.1
6000	28387
6133.33	29087.4
6266.67	29753.1
6400	30031.2
6533.33	30236.3
6666.67	30411.3
6800	30703.6
6933.33	30902.4
7066.67	31188.3
7200	31433.3
7333.33	31646.4
7466.67	31864.2
7600	32114
7733.33	32306.7
7866.67	32541.3
8000	32759.2
8133.33	32913.8
8266.67	33168.5
8400	33293.8
8533.33	33465.8
8666.67	33591.7
8800	33617.5
8933.33	33566.7
9066.67	33499.2
9200	33355.5
9333.33	33298.3
9466.67	33269.9
9600	33253.4
9733.33	33331.2
9866.67	33438.3
10000	33465.1
10133.3	33474.9
10266.7	33495.9
10400	33483.2
10533.3	33529.2
10666.7	33515.4
10800	33416.2
10933.3	33437.2
11066.7	33386.8
11200	33326.8
11333.3	33391.3
11466.7	33384.3
11600	33359.4
11733.3	33276.1
11866.7	33248.3
12000	33096.7
12133.3	33026.4
12266.7	32988
12400	32894.9
12533.3	32910.3
12666.7	32926.9
12800	32869.2
12933.3	32965.4
13066.7	32982.8
13200	32876.8
13333.3	32884.7
13466.7	32770.2
13600	32552.6
13733.3	32394.7
13866.7	32233.7
14000	32000.4
14133.3	31845
14266.7	31697.8
14400	31540.9
14533.3	31493.8
14666.7	31404.5
14800	31298.1
14933.3	31286.1
15066.7	31209.1
15200	31091.6
15333.3	31071.1
15466.7	31053.5
15600	30871.5
15733.3	30863.2
15866.7	30830
16000	30693.7
16133.3	30643.7
16266.7	30596.8
16400	30420.4
16533.3	30385.4
16666.7	30388.2
16800	30291.4
16933.3	30275.6
17066.7	30275.9
17200	30137.5
17333.3	30143
17466.7	30149.5
17600	30019.8
17733.3	30054.9
17866.7	29991.4
18000	29878.5
18133.3	29854.7
18266.7	29808.5
18400	29654.9
18533.3	29615.6
18666.7	29603.7
18800	29485
18933.3	29501.6
19066.7	29525.5
19200	29379.7
19333.3	29449.9
19466.7	29428.7
19600	29350.3
19733.3	29420.1
19866.7	29408.6
20000	29322
20133.3	29355.1
20266.7	29431
20400	29325.7
20533.3	29346.1
20666.7	29398.7
20800	29333.9
20933.3	29446.8
21066.7	29430.9
21200	29361.9
21333.3	29421.7
21466.7	29502.4
21600	29412.5
21733.3	29553.7
21866.7	29594.8
22000	29539.6
22133.3	29684.7
22266.7	29784.4
22400	29804.6
22533.3	30052.9
22666.7	30258.1
22800	30352.1
22933.3	30760.6
23066.7	31150.2
23200	31488.7
23333.3	32092.7
23466.7	32681
23600	33179.1
23733.3	33909.3
23866.7	34529.3
24000	35009.3
24133.3	35530.8
24266.7	35762.2
24400	35606.1
24533.3	35438.2
24666.7	34950
24800	34081.9
24933.3	33403
25066.7	32628.3
25200	31863.4
25333.3	31426.4
25466.7	31125.7
25600	30759
25733.3	30692.8
25866.7	30602.6
26000	30333
26133.3	30356.6
26266.7	30255.8
26400	30025.5
26533.3	30050.4
26666.7	29962.2
26800	29719.6
26933.3	29759
27066.7	29683.7
27200	29564.5
27333.3	29589.2
27466.7	29549.5
27600	29459.4
27733.3	29527.8
27866.7	29585.4
28000	29536.8
28133.3	29653.6
28266.7	29820.5
28400	29894.7
28533.3	30262.2
28666.7	30685.7
28800	31051.8
28933.3	31719.8
29066.7	32273.7
29200	32609.8
29333.3	32985.6
29466.7	32908.8
29600	32429.2
29733.3	31990.8
29866.7	31285.5
30000	30483
30133.3	29870.2
30266.7	29375.7
30400	28825.6
30533.3	28627.1
30666.7	28464.1
30800	28228.2
30933.3	28202.1
31066.7	28116.7
31200	28069.6
31333.3	28083.1
31466.7	28145.8
31600	28176.9
31733.3	28364.7
31866.7	28526.4
32000	28678.3
32133.3	28967.3
32266.7	29195.6
32400	29152.3
32533.3	29325.3
32666.7	29215.4
32800	28910.3
32933.3	28684.4
33066.7	28268.8
33200	27813.9
33333.3	27532.8
33466.7	27274.4
33600	27019.8
33733.3	26850.7
33866.7	26753.4
34000	26572.9
34133.3	26553.1
34266.7	26513.9
34400	26420.6
34533.3	26342.4
34666.7	26382.1
34800	26267.4
34933.3	26266.6
35066.7	26203.1
35200	26140
35333.3	26146.4
35466.7	26040.7
35600	25945.9
35733.3	25925.9
35866.7	25880.9
36000	25798.5
36133.3	25793.3
36266.7	25834.8
36400	25838.9
36533.3	26076.1
36666.7	26359.5
36800	26536.5
36933.3	26820.8
37066.7	27117.5
37200	27276
37333.3	27493
37466.7	27574
37600	27392.1
37733.3	27281.2
37866.7	27097.4
38000	26929.3
38133.3	26840.6
38266.7	26915
38400	27006.6
38533.3	27221.8
38666.7	27415.6
38800	27466.2
38933.3	27467.8
39066.7	27351.2
39200	26967
39333.3	26649.7
39466.7	26123.8
39600	25620.1
39733.3	25163.4
39866.7	24722.9
40000	24237.6
40133.3	23893.8
40266.7	23756.3
40400	23504.2
40533.3	23386.5
40666.7	23206.9
40800	23140.6
40933.3	23097.5
41066.7	22980.6
41200	22907.8
41333.3	22813.1
41466.7	22770.3
41600	22768.7
41733.3	22637
41866.7	22591.6
42000	22571.2
42133.3	22569.3
42266.7	22530.5
42400	22487.9
42533.3	22441
42666.7	22442.2
42800	22378.9
42933.3	22381
43066.7	22372.6
43200	22409.6
43333.3	22406.2
43466.7	22423.7
43600	22358.1
43733.3	22447.9
43866.7	22393.4
44000	22376.6
44133.3	22321.8
44266.7	22239.5
44400	22145.4
44533.3	22058.3
44666.7	22020.2
44800	22023.9
44933.3	22019.2
45066.7	21984.3
45200	22010.7
45333.3	21997.7
45466.7	22126.5
45600	22166.4
45733.3	22264.3
45866.7	22322.7
46000	22214.1
46133.3	22222.4
46266.7	22153.9
46400	21969.9
46533.3	21828
46666.7	21738.5
46800	21500.7
46933.3	21395.9
47066.7	21263.1
47200	21134.9
47333.3	21068.1
47466.7	20960.8
47600	20900.3
47733.3	20897.1
47866.7	20898.6
48000	20767.9
48133.3	20815.1
48266.7	20801.2
48400	20766.9
48533.3	20710.6
48666.7	20660.2
48800	20650.6
48933.3	20676.2
49066.7	20692.3
49200	20675.6
49333.3	20716.3
49466.7	20653.5
49600	20622.9
49733.3	20644.1
49866.7	20624.6
50000	20573.9
50133.3	20575.1
50266.7	20568.5
50400	20508.2
50533.3	20556.4
50666.7	20489.6
50800	20504.9
50933.3	20534
51066.7	20504.3
51200	20470.7
51333.3	20542.3
51466.7	20542.5
51600	20531.7
51733.3	20502
51866.7	20589.9
52000	20568.4
52133.3	20669.1
52266.7	20724.8
52400	20737.1
52533.3	20813.6
52666.7	20815.4
52800	20827
52933.3	20817.6
53066.7	20758.1
53200	20677.5
53333.3	20642.7
53466.7	20566.9
53600	20453.6
53733.3	20374.9
53866.7	20260.9
54000	20093.2
54133.3	19934.4
54266.7	19802.4
54400	19684.3
54533.3	19600.8
54666.7	19457.5
54800	19416.1
54933.3	19296.7
55066.7	19230.2
55200	19178
55333.3	19125.8
55466.7	19027.7
55600	18987.4
55733.3	18919.8
55866.7	18841.9
56000	18839.1
56133.3	18778
56266.7	18744.5
56400	18679.3
56533.3	18607.2
56666.7	18574.5
56800	18576.1
56933.3	18524.6
57066.7	18492.8
57200	18438.5
57333.3	18384.9
57466.7	18358.4
57600	18344.3
57733.3	18325.7
57866.7	18282.1
58000	18220
58133.3	18154.1
58266.7	18079.7
58400	17940.8
58533.3	17850.7
58666.7	17804
58800	17715.7
58933.3	17648
59066.7	17596.2
59200	17374.7
59333.3	17279.5
59466.7	17163.1
59600	16974.8
59733.3	16921.3
59866.7	16856.7
60000	16663.8
60133.3	16646.7
60266.7	16550.1
60400	16387
60533.3	16411.5
60666.7	16314.2
60800	16183.7
60933.3	16212.5
61066.7	16147.7
61200	16063.5
61333.3	16010.1
61466.7	16001.3
61600	15860.7
61733.3	15854.1
61866.7	15758.7
62000	15665.4
62133.3	15711.1
62266.7	15641
62400	15449.6
62533.3	15411.4
62666.7	15353
62800	15219.3
62933.3	15205.5
63066.7	15195.4
63200	15085
63333.3	15091.4
63466.7	14990.8
63600	14904.4
63733.3	14861.7
63866.7	14701.7
64000	14485.5
64133.3	14496
64266.7	14342.4
64400	14147.1
64533.3	14114.6
64666.7	14047.1
64800	13831.2
64933.3	13831.5
65066.7	13678.5
65200	13577.8
65333.3	13483.9
65466.7	13459
65600	13300.6
65733.3	13305.1
65866.7	13233.8
66000	13065
66133.3	13050.1
66266.7	12983.6
66400	12826.8
66533.3	12806.2
66666.7	12768.9
66800	12594
66933.3	12535.9
67066.7	12413.2
67200	12273.5
67333.3	12255.3
67466.7	12207.5
67600	11966.5
67733.3	11886.4
67866.7	11839.8
68000	11583.9
68133.3	11612.5
68266.7	11486.5
68400	11271.2
68533.3	11259.8
68666.7	11242.7
68800	11052.6
68933.3	11015.5
69066.7	10939.2
69200	10827.4
69333.3	10793.5
69466.7	10730.8
69600	10534.1
69733.3	10544.3
69866.7	10511.2
70000	10357
70133.3	10377.2
70266.7	10317.8
70400	10155.1
70533.3	10200.7
70666.7	10142.3
70800	9999.57
70933.3	9996.35
71066.7	9926.32
71200	9843.64
71333.3	9805.78
71466.7	9737.76
71600	9673.78
71733.3	9684.19
71866.7	9605.95
72000	9473.84
72133.3	9465.64
72266.7	9437.29
72400	9362.19
72533.3	9337.45
72666.7	9318.03
72800	9212.6
72933.3	9210.38
73066.7	9165.15
73200	9051.27
73333.3	9003.82
73466.7	8999.55
73600	8882.53
73733.3	8928.15
73866.7	8844.45
74000	8737.72
74133.3	8773.34
74266.7	8696.58
74400	8643.58
74533.3	8611.68
74666.7	8599.82
74800	8521.86
74933.3	8541.75
75066.7	8472.51
75200	8392.74
75333.3	8404.3
75466.7	8388.19
75600	8268.81
75733.3	8284.04
75866.7	8264.68
76000	8198.99
76133.3	8191.32
76266.7	8151.82
76400	8109.1
76533.3	8117.05
76666.7	8075.02
76800	7991.15
76933.3	8038.56
77066.7	8024.65
77200	7978.94
77333.3	7962.26
77466.7	7914.36
77600	7902.29
77733.3	7857.71
77866.7	7833.45
78000	7762.98
78133.3	7804.9
78266.7	7773.07
78400	7700.84
78533.3	7706.93
78666.7	7670.18
78800	7581.24
78933.3	7577.95
79066.7	7541
79200	7491.75
79333.3	7517.63
79466.7	7464.08
79600	7437.58
79733.3	7403.74
79866.7	7376.09
80000	7344.61
80133.3	7336.08
80266.7	7306.42
80400	7251.02
80533.3	7301.2
80666.7	7258.82
80800	7239.46
80933.3	7229.82
81066.7	7203.49
81200	7173.08
81333.3	7150.23
81466.7	7106.37
81600	7107.66
81733.3	7100.78
81866.7	7101.39
82000	7062.67
82133.3	7052.52
82266.7	7004.8
82400	6988.74
82533.3	6976.6
82666.7	6935.47
82800	6956.2
82933.3	6926.98
83066.7	6922.72
83200	6882.73
83333.3	6875.8
83466.7	6854.93
83600	6840.02
83733.3	6817.56
83866.7	6815.23
84000	6803.81
84133.3	6787.8
84266.7	6768.38
84400	6753.86
84533.3	6767.05
84666.7	6740.36
84800	6717.06
84933.3	6695.41
85066.7	6697.18
85200	6686.1
85333.3	6695.74
85466.7	6676.42
85600	6654.58
85733.3	6649.38
85866.7	6648.51
86000	6649.92
86133.3	6628.97
86266.7	6624.83
86400	6619.86
86533.3	6625.35
86666.7	6635.46
86800	6626.02
86933.3	6640.04
87066.7	6641.16
87200	6634.7
87333.3	6650.74
87466.7	6667.96
87600	6665.48
87733.3	6663.16
87866.7	6663.74
88000	6665.73
88133.3	6668.39
88266.7	6677.42
88400	6686.05
88533.3	6671.14
88666.7	6659.19
88800	6647.26
88933.3	6626.78
89066.7	6616.48
89200	6598.01
89333.3	6581.78
89466.7	6560.69
89600	6537.12
89733.3	6503.88
89866.7	6490.89
90000	6474.49
90133.3	6432
90266.7	6418.26
90400	6408.62
90533.3	6370.6
90666.7	6350.88
90800	6355.43
90933.3	6288.03
91066.7	6252.37
91200	6239.39
91333.3	6198.09
91466.7	6166.19
91600	6138.32
91733.3	6116.09
91866.7	6072.75
92000	6063.6
92133.3	5996.63
92266.7	5978.69
92400	5959.61
92533.3	5944.43
92666.7	5925.08
92800	5916.65
92933.3	5880.47
93066.7	5875.51
93200	5854.38
93333.3	5825.17
93466.7	5811.61
93600	5805.51
93733.3	5781.84
93866.7	5771.02
94000	5762.12
94133.3	5730.83
94266.7	5734.02
94400	5718.57
94533.3	5684.74
94666.7	5654.49
94800	5657.73
94933.3	5636.35
95066.7	5623.71
95200	5596.98
95333.3	5582.94
95466.7	5593.49
95600	5556.85
95733.3	5521.38
95866.7	5515.11
96000	5512.04
96133.3	5478.28
96266.7	5469.27
96400	5459.25
96533.3	5432.93
96666.7	5435.63
96800	5401.33
96933.3	5382.43
97066.7	5376.43
97200	5373.68
97333.3	5339.81
97466.7	5331.86
97600	5342.4
97733.3	5320.59
97866.7	5315.07
98000	5293.55
98133.3	5259.38
98266.7	5253.62
98400	5240.72
98533.3	5237.14
98666.7	5227.06
98800	5233.86
98933.3	5212.62
99066.7	5213.97
99200	5200.31
99333.3	5179.46
99466.7	5142.72
99600	5153.21
99733.3	5144.3
99866.7	5139.51
100000	5150.78
100133	5146.45
100267	5096.35
100400	5103.55
100533	5088.93
100667	5083.58
100800	5088.11
100933	5065.69
101067	5065.16
101200	5073.27
101333	5065.59
101467	5017.36
101600	5020.79
101733	5006.95
101867	4999.86
102000	5010.55
102133	4977.83
102267	4969.47
102400	4993.89
102533	4957.89
102667	4929.33
102800	4938.74
102933	4920.02
103067	4905.29
103200	4907.06
103333	4899.26
103467	4874.87
103600	4902.34
103733	4838.13
103867	4812.71
104000	4841.6
104133	4812.38
104267	4817.8
104400	4807.14
104533	4778.52
104667	4772.82
104800	4803.96
104933	4733.68
105067	4717.78
105200	4726.71
105333	4696.26
105467	4716.8
105600	4696.83
105733	4673.76
105867	4655.61
106000	4683.75
106133	4621.87
106267	4632.3
106400	4640.1
106533	4626.85
106667	4620.47
106800	4613.33
106933	4569.81
107067	4574.11
107200	4598.07
107333	4538.57
107467	4530.13
107600	4526.46
107733	4532.04
107867	4493.9
108000	4522.59
108133	4487.95
108267	4517.42
108400	4469.23
108533	4435.05
108667	4442.35
108800	4452.58
108933	4414.91
109067	4410.18
109200	4424.02
109333	4392.95
109467	4410.75
109600	4395.66
109733	4375.24
109867	4348.98
110000	4356.06
110133	4329.18
110267	4344.27
110400	4343.17
110533	4311.17
110667	4333.69
110800	4297.04
110933	4302.3
111067	4282.83
111200	4295.56
111333	4246.56
111467	4267.13
111600	4280.34
111733	4249.29
111867	4226.43
112000	4242.66
112133	4211.09
112267	4225.27
112400	4215.25
112533	4189.56
112667	4207.6
112800	4213.78
112933	4183.16
113067	4159.8
113200	4175.54
113333	4136.61
113467	4142.5
113600	4148.33
113733	4118.56
113867	4117.11
114000	4143.73
114133	4145.8
114267	4082.1
114400	4105.52
114533	4071.36
114667	4073.28
114800	4091.88
114933	4069.25
115067	4060.44
115200	4087.36
115333	4060.09
115467	4043.81
115600	4051.24
115733	4014.39
115867	4006.78
116000	4029.7
116133	4003.11
116267	4001.92
116400	4017.18
116533	3981.08
116667	3962.91
116800	3977.78
116933	3954.31
117067	3944.56
117200	3952.68
117333	3933.89
117467	3937.29
117600	3963.66
117733	3886.29
117867	3906.23
118000	3907.26
118133	3866.31
118267	3900.34
118400	3899.01
118533	3856.28
118667	3860.93
118800	3880.14
118933	3847.81
119067	3831.66
119200	3833.41
119333	3833.51
119467	3817.11
119600	3842.6
119733	3810.16
119867	3798.68
120000	3839.01
120133	3799.69
120267	3761.99
120400	3809.68
120533	3763.44
120667	3765.21
120800	3787.93
120933	3747.9
121067	3758.82
121200	3739.16
121333	3728.66
121467	3704.12
121600	3756.28
121733	3708.72
121867	3698.02
122000	3731.92
122133	3687.92
122267	3700.86
122400	3703.03
122533	3643.34
122667	3676.02
122800	3675.65
122933	3632.7
123067	3633.14
123200	3659.55
123333	3637.19
123467	3626.43
123600	3622.06
123733	3584.49
123867	3600.39
124000	3610.51
124133	3571.04
124267	3585.97
124400	3610.06
124533	3590.21
124667	3591.57
124800	3585.18
124933	3529.96
125067	3558.44
125200	3578.26
125333	3526.46
125467	3526.83
125600	3565.31
125733	3532.1
125867	3534.58
126000	3509.12
126133	3504.21
126267	3482.4
126400	3516.55
126533	3502.07
126667	3466.05
126800	3494.32
126933	3485.35
127067	3451.68
127200	3465.73
127333	3445.5
127467	3445.57
127600	3453.44
127733	3436.01
127867	3428.07
128000	3453.29
128133	3447.34
128267	3382.06
128400	3424.55
128533	3383.08
128667	3413.8
128800	3410.49
128933	3372.51
129067	3355.28
129200	3399.03
129333	3387.43
129467	3346.09
129600	3368.17
129733	3321.14
129867	3306.18
130000	3370.78
130133	3333.48
130267	3325.2
130400	3348.14
130533	3306.89
130667	3302.92
130800	3318.72
130933	3286.21
131067	3287.66
131200	3311.4
131333	3277.88
131467	3275.62
131600	3313.36
131733	3247.26
131867	3258.93
132000	3257.32
132133	3225.38
132267	3217.29
132400	3253.31
132533	3221.77
132667	3226.19
132800	3258.61
132933	3210.67
133067	3196.64
133200	3220.1
133333	3188.26
133467	3200.13
133600	3186.46
133733	3180.12
133867	3146.2
134000	3182.9
134133	3130.51
134267	3118.15
134400	3070.19
134533	3029.84
134667	2980.03
134800	2970.28
134933	2937.08
135067	2928.18
135200	2793.48
135333	2692.06
135467	2608.59
135600	2494.9
135733	2441.99
135867	2394.32
136000	2293.55
136133	2304.01
136267	2250.27
136400	2142.18
136533	2130.06
136667	2101.03
136800	2044.89
136933	2010.81
137067	1958.72
137200	1910.85
137333	1876.78
137467	1859.8
137600	1764.36
137733	1755.74
137867	1711.97
138000	1659.69
138133	1659.47
138267	1645.85
138400	1573.24
138533	1562.43
138667	1553.51
138800	1495.18
138933	1459.03
139067	1478.19
139200	1412.87
139333	1395.94
139467	1375.02
139600	1309.69
139733	1313.73
139867	1300.52
140000	1246.08
140133	1217.88
140267	1208.9
140400	1152.26
140533	1180.11
140667	1137.86
140800	1097.18
140933	1088.79
141067	1069.81
141200	1033.31
141333	1021.96
141467	1006.18
141600	963.0652
141733	959.8990
141867	944.3151
142000	895.6934
142133	890.2034
142267	879.2110
142400	831.4482
142533	827.2467
142667	800.5840
142800	773.6079
142933	759.2819
143067	745.6042
143200	723.0770
143333	699.2514
143467	693.5872
143600	665.1376
143733	644.2948
143867	627.8102
144000	607.5936
144133	583.3797
144267	585.1082
144400	545.8973
144533	532.1629
144667	529.0965
144800	488.6045
144933	480.5782
145067	462.3613
145200	437.8214
145333	418.6202
145467	404.1836
145600	382.8446
145733	368.0159
145867	356.4212
146000	335.3808
146133	313.7639
146267	294.2147
146400	262.0054
146533	248.3079
146667	221.7537
146800	208.8001
146933	200.3101
147067	186.0227
147200	175.5395
147333	169.6617
147467	168.8089
147600	155.4174
147733	152.7970
147867	139.8908
148000	134.3367
148133	132.0622
148267	123.4617
148400	109.0480
148533	107.8628
148667	101.2846
148800	87.6281
148933	80.7782
149067	73.5772
149200	67.9498
149333	59.7063
149467	52.2134
149600	46.3206
149733	39.8953
149867	35.3723
150000	0.5959