File: V6_SAXS/data/profiles/Frontscattering_Si_powder.txt
133.3333	14664.4
266.6667	14584.9
400.0000	14836.2
533.3333	14566.3
666.6667	15032.5
800.0000	15125.3
933.3333	14765.8
1066.67	14928.8
1200	14828.6
1333.33	15112.9
1466.67	15388.5
1600	15145.9
1733.33	15646.2
1866.67	16398
2000	16879.5
2133.33	16997.9
2266.67	17454.9
2400	17806.4
2533.33	17887.6
2666.67	18338.3
2800	18215.6
2933.33	18459.6
3066.67	18633.9
3200	18858.6
3333.33	18859.8
3466.67	19123.4
3600	19455.2
3733.33	19879.5
3866.67	20078.4
4000	20528.4
4133.33	20851.3
4266.67	20926.1
4400	21318
4533.33	21640
4666.67	21726.4
4800	22148.5
4933.33	22362.1
5066.67	22537.9
5200	22844.8
5333.33	23184.7
5466.67	23355.9
5600	23782.4
5733.33	24016.6
5866.67	24333.6
6000	24808.1
6133.33	25246.7
6266.67	25774.8
6400	26289.9
6533.33	26351.6
6666.67	26533.8
6800	26770
6933.33	26840.9
7066.67	26991.8
7200	27279.1
7333.33	27285.8
7466.67	27422.1
7600	27618.4
7733.33	27712.2
7866.67	27975.3
8000	28164.6
8133.33	28176.7
8266.67	28182.3
8400	28170.2
8533.33	28012.9
8666.67	27957.6
8800	28032.1
8933.33	28025.4
9066.67	28069.8
9200	28260.3
9333.33	28256
9466.67	28338.8
9600	28490.2
9733.33	28472.3
9866.67	28693.4
10000	28784.5
10133.3	28798.9
10266.7	28850.2
10400	28902.3
10533.3	28866
10666.7	28720.1
10800	28559.9
10933.3	28548
11066.7	28474.5
11200	28299.6
11333.3	28318.1
11466.7	28262.9
11600	28190.1
11733.3	28139
11866.7	28186.9
12000	28180.9
12133.3	28211.3
12266.7	28129.5
12400	27999.2
12533.3	27894.6
12666.7	27837
12800	27688.2
12933.3	27602.5
13066.7	27481.9
13200	27329.2
13333.3	27174.6
13466.7	27092.7
13600	27011.6
13733.3	26979.9
13866.7	26924.5
14000	26869.3
14133.3	26851.1
14266.7	26845.6
14400	26809.6
14533.3	26829.9
14666.7	26754.8
14800	26699.1
14933.3	26664.3
15066.7	26581.9
15200	26448.6
15333.3	26481.1
15466.7	26434.2
15600	26359.9
15733.3	26422.2
15866.7	26429.2
16000	26471.1
16133.3	26624.1
16266.7	26766
16400	26744.7
16533.3	26770.8
16666.7	26724.2
16800	26526.6
16933.3	26350.6
17066.7	26217
17200	26148.8
17333.3	26106.8
17466.7	26093.6
17600	25981.9
17733.3	26004.3
17866.7	26012.3
18000	26019.5
18133.3	26104.6
18266.7	26196.2
18400	26179.3
18533.3	26233
18666.7	26254.8
18800	26192
18933.3	26210.6
19066.7	26249.9
19200	26173.1
19333.3	26188.6
19466.7	26140.8
19600	26158.5
19733.3	26205.4
19866.7	26234.6
20000	26253.1
20133.3	26295.2
20266.7	26268.8
20400	26174.1
20533.3	26156.7
20666.7	26114.1
20800	26038.6
20933.3	26112
21066.7	26172.7
21200	26125.7
21333.3	26208.6
21466.7	26277.8
21600	26281.9
21733.3	26434.4
21866.7	26632.5
22000	26839.1
22133.3	27121.4
22266.7	27475.2
22400	27779.2
22533.3	28181.9
22666.7	28440.4
22800	28550
22933.3	28479.8
23066.7	28309.3
23200	27952.8
23333.3	27667
23466.7	27276.1
23600	26952.8
23733.3	26705.9
23866.7	26528.6
24000	26305
24133.3	26261.3
24266.7	26199
24400	26120.9
24533.3	26146.9
24666.7	26137.3
24800	26022.3
24933.3	26061.6
25066.7	26083.1
25200	26009
25333.3	26022.3
25466.7	26023.3
25600	25928.1
25733.3	25974.6
25866.7	25879.2
26000	25794.8
26133.3	25818.9
26266.7	25884.9
26400	25812.9
26533.3	25899.4
26666.7	25948.2
26800	25882.4
26933.3	26019.6
27066.7	26170.7
27200	26291
27333.3	26531.2
27466.7	26744.2
27600	26736.4
27733.3	26865.6
27866.7	26775.3
28000	26601.7
28133.3	26605.9
28266.7	26576.3
28400	26439.9
28533.3	26464.3
28666.7	26380.6
28800	26135.5
28933.3	26268.9
29066.7	26146.3
29200	25958.4
29333.3	25954.7
29466.7	25904.3
29600	25601.7
29733.3	25525.9
29866.7	25393.1
30000	25173.8
30133.3	25110.4
30266.7	25071.9
30400	24902
30533.3	24852.3
30666.7	24816.4
30800	24630.1
30933.3	24549.3
31066.7	24392.3
31200	24161.4
31333.3	24099.4
31466.7	23989.2
31600	23834.6
31733.3	23878.5
31866.7	23803.6
32000	23664.7
32133.3	23586
32266.7	23608.4
32400	23486.1
32533.3	23617.2
32666.7	23599
32800	23480.3
32933.3	23521.1
33066.7	23383.1
33200	23203.2
33333.3	23185.2
33466.7	23052.5
33600	22857.2
33733.3	22923.4
33866.7	22878.3
34000	22749.3
34133.3	22746.5
34266.7	22678
34400	22734.1
34533.3	22829.2
34666.7	22859.5
34800	22788.6
34933.3	22950.9
35066.7	22939.4
35200	22909.4
35333.3	22909.2
35466.7	22877.5
35600	22692.9
35733.3	22691.7
35866.7	22449.3
36000	22303.6
36133.3	22371.8
36266.7	22357
36400	22306
36533.3	22367.5
36666.7	22336.6
36800	22199.6
36933.3	22183
37066.7	22037.8
37200	21813.8
37333.3	21805
37466.7	21601
37600	21510.4
37733.3	21416.1
37866.7	21315.1
38000	21191.8
38133.3	21204
38266.7	21092.7
38400	20999
38533.3	21001.1
38666.7	21002.5
38800	20979
38933.3	20922.6
39066.7	20921.2
39200	20867.6
39333.3	20803.9
39466.7	20700.2
39600	20698.3
39733.3	20772
39866.7	20673.4
40000	20674.8
40133.3	20559.6
40266.7	20513.6
40400	20477.3
40533.3	20383.2
40666.7	20316.7
40800	20331.4
40933.3	20256.3
41066.7	20186.5
41200	20167.3
41333.3	20153.5
41466.7	20158.8
41600	20124.9
41733.3	20052.1
41866.7	19982.3
42000	20023.3
42133.3	20015.1
42266.7	19958
42400	19894.4
42533.3	19866.4
42666.7	19804.9
42800	19700.1
42933.3	19627
43066.7	19563.1
43200	19591.6
43333.3	19499.9
43466.7	19568.5
43600	19511.7
43733.3	19469.5
43866.7	19459.1
44000	19393.6
44133.3	19422.1
44266.7	19465
44400	19353.3
44533.3	19406.1
44666.7	19297.8
44800	19113.5
44933.3	19074.4
45066.7	19053.1
45200	18979.1
45333.3	18924
45466.7	18921.2
45600	18835.5
45733.3	18876.2
45866.7	18860.2
46000	18790.2
46133.3	18799.8
46266.7	18767.8
46400	18774.8
46533.3	18737.7
46666.7	18776.7
46800	18766.7
46933.3	18769.3
47066.7	18748.8
47200	18700.9
47333.3	18747.8
47466.7	18719.8
47600	18692.5
47733.3	18714
47866.7	18763
48000	18718.4
48133.3	18738.4
48266.7	18818.3
48400	18949.1
48533.3	19111.3
48666.7	19241.9
48800	19361.1
48933.3	19603.6
49066.7	19758.9
49200	19843
49333.3	19816.8
49466.7	19666.1
49600	19506.9
49733.3	19368.5
49866.7	19195.8
50000	18952.3
50133.3	18925.7
50266.7	18818
50400	18677.8
50533.3	18627
50666.7	18560.1
50800	18451.8
50933.3	18408.9
51066.7	18323.8
51200	18234.8
51333.3	18242.5
51466.7	18182.9
51600	18074.2
51733.3	17971.9
51866.7	17938.8
52000	17827.3
52133.3	17774.8
52266.7	17732.5
52400	17653.4
52533.3	17652.5
52666.7	17578.7
52800	17508.3
52933.3	17467.8
53066.7	17451.7
53200	17383
53333.3	17424.2
53466.7	17402.6
53600	17294.2
53733.3	17314.4
53866.7	17299.1
54000	17231.1
54133.3	17273.5
54266.7	17258.5
54400	17229.9
54533.3	17231.4
54666.7	17260.2
54800	17272.5
54933.3	17287.8
55066.7	17249.7
55200	17189.7
55333.3	17207
55466.7	17157.4
55600	17178.1
55733.3	17128.3
55866.7	17081.6
56000	17080.9
56133.3	17045.9
56266.7	16991.5
56400	16889.1
56533.3	16827.4
56666.7	16769.7
56800	16708.3
56933.3	16614.9
57066.7	16579.1
57200	16586.1
57333.3	16548.8
57466.7	16487.3
57600	16486.7
57733.3	16450.8
57866.7	16440.1
58000	16390.3
58133.3	16412.7
58266.7	16399.5
58400	16310.1
58533.3	16231.1
58666.7	16070.3
58800	15933.2
58933.3	15896.1
59066.7	15835.3
59200	15770.2
59333.3	15727.4
59466.7	15601.7
59600	15497.9
59733.3	15428.1
59866.7	15424.6
60000	15318.2
60133.3	15230.7
60266.7	15174.2
60400	15136.7
60533.3	15125.4
60666.7	15007.8
60800	14807
60933.3	14677.3
61066.7	14540.5
61200	14330
61333.3	14267.3
61466.7	14239.3
61600	14096.4
61733.3	14017.5
61866.7	13965.4
62000	13732.6
62133.3	13742.2
62266.7	13650.8
62400	13529.5
62533.3	13477.2
62666.7	13410.1
62800	13281.4
62933.3	13215.4
63066.7	13166.7
63200	13044
63333.3	12971.4
63466.7	12864.1
63600	12579.5
63733.3	12547.5
63866.7	12423.5
64000	12155.3
64133.3	12121.7
64266.7	12056
64400	11636
64533.3	11657
64666.7	11504.7
64800	11152.3
64933.3	11127.4
65066.7	11020.5
65200	10830.5
65333.3	10799.6
65466.7	10659.9
65600	10377.9
65733.3	10330.1
65866.7	10250
66000	10015.1
66133.3	10008.9
66266.7	9867.41
66400	9628.82
66533.3	9667.98
66666.7	9503.56
66800	9381.14
66933.3	9342.71
67066.7	9251.79
67200	9103.16
67333.3	9090.51
67466.7	9079.95
67600	8889.24
67733.3	8882.24
67866.7	8826.14
68000	8717.89
68133.3	8717.67
68266.7	8645.49
68400	8470.7
68533.3	8482.83
68666.7	8470.78
68800	8321.87
68933.3	8327.57
69066.7	8224.06
69200	8200.57
69333.3	8133.21
69466.7	8063.55
69600	7908.89
69733.3	7921.81
69866.7	7893.7
70000	7794.5
70133.3	7785.84
70266.7	7735.96
70400	7646.37
70533.3	7609.22
70666.7	7633.93
70800	7468.66
70933.3	7458.24
71066.7	7447.12
71200	7369.55
71333.3	7368.38
71466.7	7306.77
71600	7225.03
71733.3	7210.46
71866.7	7197.58
72000	7064.82
72133.3	7026.59
72266.7	7011.69
72400	6929.32
72533.3	6902.07
72666.7	6849.43
72800	6798.6
72933.3	6808.98
73066.7	6775.91
73200	6702.65
73333.3	6681.84
73466.7	6713.09
73600	6622.25
73733.3	6645.47
73866.7	6576.85
74000	6527.72
74133.3	6517.83
74266.7	6463.02
74400	6410.7
74533.3	6390.78
74666.7	6392.37
74800	6333.25
74933.3	6340.61
75066.7	6342.85
75200	6261.15
75333.3	6219.48
75466.7	6184.29
75600	6154.88
75733.3	6146.64
75866.7	6134.29
76000	6121.66
76133.3	6118.29
76266.7	6096.2
76400	6048.59
76533.3	6030.55
76666.7	6062.03
76800	5969.43
76933.3	6007.17
77066.7	6004.7
77200	5918.45
77333.3	5915.46
77466.7	5853.72
77600	5840.76
77733.3	5821.08
77866.7	5778.43
78000	5737.24
78133.3	5782.7
78266.7	5757.39
78400	5732.51
78533.3	5734.63
78666.7	5701.08
78800	5670.95
78933.3	5655.21
79066.7	5630.22
79200	5604.45
79333.3	5639.95
79466.7	5602.49
79600	5562.09
79733.3	5581.19
79866.7	5578.88
80000	5531.79
80133.3	5521.42
80266.7	5511.16
80400	5498.24
80533.3	5530.33
80666.7	5537.76
80800	5509.35
80933.3	5526.23
81066.7	5533.14
81200	5492.21
81333.3	5495.58
81466.7	5469.8
81600	5470.22
81733.3	5472.6
81866.7	5489.29
82000	5449.68
82133.3	5427.33
82266.7	5436.44
82400	5403.17
82533.3	5405.5
82666.7	5400.76
82800	5360.49
82933.3	5361.86
83066.7	5346.17
83200	5315.61
83333.3	5331.43
83466.7	5317.33
83600	5293.84
83733.3	5274.83
83866.7	5247.53
84000	5239.78
84133.3	5254.24
84266.7	5244
84400	5224.42
84533.3	5220.25
84666.7	5181.43
84800	5150.89
84933.3	5155.57
85066.7	5126.16
85200	5118.49
85333.3	5120.44
85466.7	5115
85600	5076.46
85733.3	5084.86
85866.7	5055.25
86000	5044.42
86133.3	5011.41
86266.7	4980.21
86400	4975.81
86533.3	4955.34
86666.7	4918.85
86800	4901.75
86933.3	4876.84
87066.7	4860.05
87200	4825.75
87333.3	4789.5
87466.7	4799.76
87600	4766.12
87733.3	4753.03
87866.7	4757.07
88000	4714.94
88133.3	4736.13
88266.7	4720.07
88400	4718.6
88533.3	4694.1
88666.7	4681.53
88800	4658.28
88933.3	4639.31
89066.7	4629.48
89200	4642.16
89333.3	4586.74
89466.7	4576.12
89600	4571.07
89733.3	4564.71
89866.7	4533.79
90000	4516.92
90133.3	4508.45
90266.7	4518.44
90400	4512.26
90533.3	4515.98
90666.7	4496.29
90800	4543.58
90933.3	4479.64
91066.7	4500.62
91200	4490.45
91333.3	4505.55
91466.7	4501.05
91600	4480.17
91733.3	4462.32
91866.7	4457.39
92000	4459.73
92133.3	4392.29
92266.7	4391.75
92400	4358.68
92533.3	4348.9
92666.7	4340.98
92800	4339.32
92933.3	4315.32
93066.7	4336.42
93200	4330.06
93333.3	4302.99
93466.7	4280.4
93600	4301.29
93733.3	4249.6
93866.7	4216.01
94000	4210.36
94133.3	4212.95
94266.7	4217.55
94400	4181.56
94533.3	4144.27
94666.7	4136.37
94800	4121.09
94933.3	4119.73
95066.7	4103.84
95200	4066.54
95333.3	4104.17
95466.7	4074.16
95600	4071.59
95733.3	4051.97
95866.7	4055.09
96000	4049.39
96133.3	4017.46
96266.7	4042.34
96400	4080.51
96533.3	4069.15
96666.7	4097.89
96800	4095.23
96933.3	4081.73
97066.7	4080.79
97200	4079.1
97333.3	4062.38
97466.7	4066.51
97600	4082.07
97733.3	4076.11
97866.7	4090.89
98000	4100.47
98133.3	4125.77
98266.7	4125.05
98400	4157.27
98533.3	4128.79
98666.7	4111.41
98800	4130.05
98933.3	4067.16
99066.7	4039.87
99200	4023.03
99333.3	3972.14
99466.7	3932.96
99600	3912.09
99733.3	3876.56
99866.7	3860.46
100000	3884.73
100133	3867.72
100267	3807.78
100400	3808.41
100533	3787.15
100667	3779.02
100800	3785.29
100933	3743.57
101067	3708.81
101200	3716.36
101333	3712.51
101467	3656.01
101600	3683.44
101733	3652.29
101867	3644.33
102000	3651.85
102133	3633.68
102267	3625.73
102400	3621.62
102533	3611.46
102667	3590.97
102800	3582.38
102933	3558
103067	3545.83
103200	3533.55
103333	3516.4
103467	3516.04
103600	3546.84
103733	3489.03
103867	3482.44
104000	3502.42
104133	3462.63
104267	3496.26
104400	3451.38
104533	3438.81
104667	3428.55
104800	3452.28
104933	3420.99
105067	3420.56
105200	3415.41
105333	3424.72
105467	3419.59
105600	3400.78
105733	3403.22
105867	3395.39
106000	3399.63
106133	3366.27
106267	3351
106400	3381.24
106533	3372.71
106667	3363.14
106800	3374.98
106933	3333.51
107067	3343.92
107200	3367.05
107333	3337.5
107467	3313.98
107600	3318.56
107733	3305.89
107867	3283.39
108000	3324.71
108133	3267.03
108267	3306.88
108400	3279.44
108533	3245.01
108667	3237.76
108800	3254.35
108933	3237.38
109067	3213
109200	3235.92
109333	3218.29
109467	3209.9
109600	3212.2
109733	3192.86
109867	3158.27
110000	3165.55
110133	3159.19
110267	3162.62
110400	3168.79
110533	3131.68
110667	3128.93
110800	3129.04
110933	3117.35
111067	3111.36
111200	3123.39
111333	3078.05
111467	3096.44
111600	3100.22
111733	3080.7
111867	3074.54
112000	3088.8
112133	3038.08
112267	3063.07
112400	3063.29
112533	3039.01
112667	3043.1
112800	3039.1
112933	3028.88
113067	3023.26
113200	3012
113333	3003.86
113467	3014.86
113600	3017.17
113733	2973.7
113867	2975.23
114000	2991.84
114133	3003.34
114267	2964.56
114400	2961.13
114533	2943.61
114667	2952.17
114800	2960.51
114933	2958.69
115067	2924.72
115200	2965.16
115333	2935.73
115467	2920.55
115600	2919.48
115733	2909.39
115867	2911.85
116000	2911.04
116133	2901.37
116267	2885.07
116400	2904.64
116533	2876.15
116667	2843.39
116800	2887.4
116933	2852.29
117067	2846.12
117200	2850.99
117333	2826.93
117467	2827.67
117600	2856.68
117733	2815.83
117867	2810.58
118000	2836.9
118133	2801.41
118267	2810.77
118400	2815.25
118533	2776.82
118667	2802.8
118800	2816.27
118933	2794.74
119067	2774.88
119200	2784.29
119333	2761.27
119467	2779.17
119600	2795.78
119733	2784.31
119867	2749.71
120000	2800.7
120133	2751.56
120267	2745.06
120400	2781.33
120533	2720.41
120667	2734.67
120800	2764.03
120933	2737.54
121067	2748.63
121200	2737.59
121333	2729.01
121467	2711.07
121600	2772.23
121733	2710.98
121867	2712.46
122000	2750.27
122133	2713.39
122267	2689.63
122400	2712.28
122533	2644.83
122667	2660.62
122800	2675.53
122933	2656.66
123067	2621.27
123200	2668.78
123333	2630.81
123467	2651.11
123600	2645.3
123733	2599.1
123867	2626.7
124000	2619.12
124133	2591.74
124267	2583.57
124400	2586.69
124533	2596.38
124667	2579.24
124800	2563.38
124933	2527.91
125067	2550.5
125200	2568.23
125333	2535.81
125467	2534.9
125600	2541.28
125733	2524.98
125867	2521.99
126000	2507.84
126133	2501.44
126267	2505.08
126400	2528.72
126533	2517.44
126667	2477.24
126800	2516.92
126933	2526.86
127067	2504.74
127200	2502.66
127333	2497.12
127467	2491.37
127600	2512.29
127733	2481.63
127867	2469.25
128000	2507.06
128133	2500.3
128267	2465.21
128400	2489.29
128533	2443.72
128667	2463.6
128800	2491.93
128933	2469.34
129067	2445.7
129200	2476.22
129333	2483.87
129467	2458.91
129600	2478.11
129733	2439.8
129867	2420.32
130000	2465.06
130133	2439.36
130267	2435.01
130400	2448.55
130533	2422.38
130667	2440.19
130800	2436.1
130933	2422.91
131067	2438.85
131200	2463.66
131333	2437.1
131467	2434.16
131600	2474.19
131733	2423.21
131867	2439.21
132000	2449.32
132133	2440.43
132267	2430.41
132400	2480.61
132533	2473.72
132667	2512.34
132800	2556.21
132933	2547.88
133067	2543.58
133200	2613.72
133333	2589.54
133467	2622.84
133600	2663.32
133733	2665.76
133867	2668.25
134000	2715.58
134133	2663.3
134267	2679.62
134400	2664.95
134533	2647.59
134667	2612.31
134800	2631.63
134933	2601.99
135067	2565.63
135200	2563.19
135333	2523.79
135467	2504.38
135600	2498.73
135733	2453.9
135867	2439.89
136000	2453.42
136133	2392.67
136267	2368.43
136400	2334.69
136533	2281.96
136667	2243.65
136800	2208.68
136933	2166.27
137067	2110.14
137200	2054.8
137333	2006.3
137467	1975.15
137600	1881.23
137733	1880.62
137867	1799.74
138000	1747.47
138133	1720.96
138267	1665.39
138400	1553.27
138533	1561.5
138667	1524.76
138800	1469.46
138933	1433.74
139067	1434.3
139200	1348.16
139333	1350.01
139467	1323.12
139600	1261.41
139733	1245.23
139867	1217.23
140000	1175.24
140133	1155.14
140267	1150.48
140400	1120.61
140533	1105
140667	1088.93
140800	1046.07
140933	1059.17
141067	1020.3
141200	975.0333
141333	950.6208
141467	940.2260
141600	903.3965
141733	899.6254
141867	881.5200
142000	849.9816
142133	849.7240
142267	828.1439
142400	808.6196
142533	794.9813
142667	778.5679
142800	747.6589
142933	766.1825
143067	732.1396
143200	706.7463
143333	689.1835
143467	677.8177
143600	663.1270
143733	648.3483
143867	627.8254
144000	615.0123
144133	605.1421
144267	612.3165
144400	574.8528
144533	570.7938
144667	565.5945
144800	545.6797
144933	545.6253
145067	522.0432
145200	511.6774
145333	488.8242
145467	470.5481
145600	451.9331
145733	436.5774
145867	428.0523
146000	393.9920
146133	377.1920
146267	370.6886
146400	353.0168
146533	349.9019
146667	336.1134
146800	323.0204
146933	307.3808
147067	283.7213
147200	270.8531
147333	265.8618
147467	256.2607
147600	236.6229
147733	225.0300
147867	218.6912
148000	199.9330
148133	186.3964
148267	174.5877
148400	158.5788
148533	151.7173
148667	139.9239
148800	131.8708
148933	126.4540
149067	119.4254
149200	106.7425
149333	97.3726
149467	88.7954
149600	80.6612
149733	71.1849
149867	63.4404
150000	2.2907