File: V6_SAXS/data/profiles/Gunier_Silicon_pouder.txt
0	793.2373
200	569.2881
400	1002.02
600	1195.58
800	1111.76
1000	842.5085
1200	1842.15
1400	2076.1
1600	2171.8
1800	2194.98
2000	2612.83
2200	2998.22
2400	2380.17
2600	2749.58
2800	1974.54
3000	2795.69
3200	3411.19
3400	3302.63
3600	3203.95
3800	2736.61
4000	3127.47
4200	3594.59
4400	3285.56
4600	2791.07
4800	3298.58
5000	3016.75
5200	2577.51
5400	3392.42
5600	3165.49
5800	2451.68
6000	3346
6200	3062.73
6400	3736.64
6600	3046.03
6800	3401.69
7000	3912.54
7200	4129.69
7400	2963.41
7600	2805.76
7800	3506.37
8000	3660.53
8200	3924.22
8400	3177.03
8600	3677.12
8800	2992.93
9000	3215.68
9200	4004.92
9400	3284.49
9600	3372.63
9800	4019.07
10000	3245.73
10200	4129.05
10400	3572.86
10600	3838.39
10800	3477.03
11000	2890.36
11200	3811.66
11400	3055.71
11600	3811.47
11800	3408.17
12000	3572.41
12200	3599.76
12400	4282.73
12600	4253.66
12800	2416.34
13000	3165.92
13200	3801.42
13400	4082.19
13600	3704.25
13800	3676.14
14000	3119.58
14200	3931.98
14400	4318.63
14600	4286.61
14800	3648.59
15000	3190.31
15200	4477.98
15400	3156.14
15600	4188.2
15800	3390.46
16000	3715.25
16200	3457.05
16400	2909.03
16600	4318.1
16800	4021.12
17000	5452.73
17200	4859.69
17400	3230.64
17600	4366.2
17800	5000.98
18000	4416.19
18200	3926.05
18400	5242.36
18600	4616.25
18800	4320.09
19000	4828.73
19200	5451.66
19400	5742.61
19600	4961.1
19800	4958.98
20000	4326.56
20200	4614.91
20400	4608.07
20600	5402.2
20800	5240.42
21000	4319.56
21200	5222.39
21400	5089
21600	4866.97
21800	5472.1
22000	4613.02
22200	6213
22400	5130.07
22600	5569.36
22800	5874.39
23000	5801.36
23200	7433.68
23400	9016.78
23600	10715.4
23800	12267.1
24000	12655.9
24200	12926.1
24400	12922
24600	13758.2
24800	17950.8
25000	21717.5
25200	24176.7
25400	13973.4
25600	8717.97
25800	6815.63
26000	6726.75
26200	6855.93
26400	5048.15
26600	6120.9
26800	5758.31
27000	6286.15
27200	5323.24
27400	5702.9
27600	5615.44
27800	5864.51
28000	5886.66
28200	5854.86
28400	5604.73
28600	5118.34
28800	5926.29
29000	6829.41
29200	5984.58
29400	7785.17
29600	8802.59
29800	10117.5
30000	11036.8
30200	12622.5
30400	14829.8
30600	19461.8
30800	22028.5
31000	27569.5
31200	41205.5
31400	42767.8
31600	31765.1
31800	27198.3
32000	25311.8
32200	24230.3
32400	30056.2
32600	39295.5
32800	34445.3
33000	26843.1
33200	22411.5
33400	19610.7
33600	18528
33800	17255.8
34000	16362.2
34200	15721.9
34400	14718.8
34600	13868.6
34800	12763.7
35000	13039.2
35200	11691
35400	10897.7
35600	11039.3
35800	9389.1
36000	9462.83
36200	8014.98
36400	7380.59
36600	6633.95
36800	5402.71
37000	4846.15
37200	4579.37
37400	4997.31
37600	5142.98
37800	3910.78
38000	4743.15
38200	3142.2
38400	4677.31
38600	3648.66
38800	4267.27
39000	3849.17
39200	4260.2
39400	4036.14
39600	3541.36
39800	3211.12
40000	3307.2
40200	3842.17
40400	2728.46
40600	4350.85
40800	3686.14
41000	2524.75
41200	2235.49
41400	2744.51
41600	2888.39
41800	2794.98
42000	3340.31
42200	3614.32
42400	3227.36
42600	3400.85
42800	3177.64
43000	3308.15
43200	3313.9
43400	2856.39
43600	3495.76
43800	2151.03
44000	2944.03
44200	2699.63
44400	2436.63
44600	2493.2
44800	2733.22
45000	3100.8
45200	2573.98
45400	3198.34
45600	2926.19
45800	2961.36
46000	3544.59
46200	2319.76
46400	3121.49
46600	3225.66
46800	3429.34
47000	1977.95
47200	2867.02
47400	4287.61
47600	4945.63
47800	7849.32
48000	6946.37
48200	7095.46
48400	6798.41
48600	7221
48800	6904.59
49000	6740.12
49200	6433.2
49400	7589.76
49600	7322.49
49800	7641.66
50000	6715.2
50200	6539.8
50400	7359.36
50600	6309.22
50800	5532.12
51000	5814.47
51200	4945.41
51400	6053.88
51600	5698.54
51800	5552.88
52000	6245.17
52200	6611.81
52400	5659.31
52600	5467.68
52800	5090
53000	6728.1
53200	6324.39
53400	7057.32
53600	7384.9
53800	6640.51
54000	7003.15
54200	7077.59
54400	7932.83
54600	8309.14
54800	9683.19
55000	10144.4
55200	9803.07
55400	10999.8
55600	10777.7
55800	9813.7
56000	9109.1
56200	8926.42
56400	8235.15
56600	7867.53
56800	7803.68
57000	7885.07
57200	8549.03
57400	8053.42
57600	9630.92
57800	8808.9
58000	6743.64
58200	7772.63
58400	7621.9
58600	6421.12
58800	7267.75
59000	6490.75
59200	7814.31
59400	7375.42
59600	7819.34
59800	7466.22
60000	7930.47
60200	9308.83
60400	7005.8
60600	7980.36
60800	7116.86
61000	7028.37
61200	7019.22
61400	6533.31
61600	8023.27
61800	7165.69
62000	7899.37
62200	7704.14
62400	7480
62600	7588.17
62800	7690.49
63000	8896.68
63200	7982.24
63400	7459.98
63600	7746.36
63800	7149.71
64000	7901.68
64200	7094.8
64400	7470.83
64600	6329.59
64800	7031.39
65000	7987.53
65200	7317.69
65400	8610.46
65600	7634.03
65800	6577.86
66000	7446.56
66200	7968.85
66400	7167.14
66600	8281.17
66800	7965.12
67000	8324.71
67200	9172.56
67400	8805.95
67600	8513.95
67800	9524.85
68000	8769.58
68200	8097.78
68400	9269.03
68600	8480.58
68800	8066.14
69000	8694.63
69200	7224.91
69400	7710.41
69600	7573.81
69800	7076.68
70000	6544.29
70200	6402.03
70400	6373.1
70600	6374.88
70800	6171.12
71000	7363.41
71200	6724.64
71400	7248.29
71600	5860.91
71800	6371.39
72000	5540.51
72200	5205.53
72400	5643.61
72600	5643.53
72800	5070.83
73000	5394.93
73200	6625.95
73400	5949.46
73600	7097.22
73800	7141.19
74000	6572.86
74200	6665.39
74400	5476.42
74600	6464.27
74800	5691.41
75000	5641.58
75200	5968.2
75400	5344.86
75600	5633.85
75800	4577.24
76000	6173.76
76200	5002.8
76400	6187.49
76600	5292.42
76800	5642.41
77000	5943.42
77200	4941.54
77400	5346.34
77600	5992.95
77800	5346.69
78000	5249.8
78200	6165.54
78400	5413.34
78600	5791.83
78800	6183.95
79000	6077
79200	6741.44
79400	8920.63
79600	11102.6
79800	13159.9
80000	17375
80200	19850.1
80400	16975.9
80600	13336.2
80800	9769.36
81000	9678.71
81200	7999.41
81400	7690.07
81600	7158.49
81800	5808.03
82000	6387.15
82200	5523.41
82400	5278.88
82600	6182.95
82800	6701.47
83000	9422.12
83200	10444
83400	9293.97
83600	7271.39
83800	6552.85
84000	6297.07
84200	5872.95
84400	5081.24
84600	6228.66
84800	5194.59
85000	4899.27
85200	6086.51
85400	4988
85600	6207.05
85800	4330.07
86000	5971.59
86200	4815.81
86400	5505.14
86600	5179.51
86800	5075.53
87000	4950.98
87200	4831.69
87400	5734.15
87600	4863.51
87800	5114.19
88000	5090.71
88200	5508.34
88400	5173.95
88600	5137.8
88800	5823.64
89000	4497.46
89200	5466.91
89400	5142.12
89600	4812.2
89800	5241.25
90000	6064.24
90200	4868.51
90400	5640.24
90600	4681.47
90800	5001.95
91000	4874.25
91200	5917
91400	4922.39
91600	4302.71
91800	4682.15
92000	5478.71
92200	4485.49
92400	5021.75
92600	4513.47
92800	4930.78
93000	5306.76
93200	5437.29
93400	5247.39
93600	5926.97
93800	5604.85
94000	4927.47
94200	4650.42
94400	5594.63
94600	4759.56
94800	5768.8
95000	5872.71
95200	5814.91
95400	5103.42
95600	5651
95800	4853.81
96000	5249.97
96200	5233.09
96400	5394.42
96600	4717.76
96800	4756.2
97000	5210.05
97200	5381.68
97400	5085.91
97600	5136.81
97800	5155.36
98000	4444.86
98200	4628.49
98400	5790.29
98600	4468.14
98800	5234.53
99000	4911.36
99200	4607.61
99400	5993.14
99600	6198.14
99800	5173.44
100000	5899.1
100200	5457.9
100400	4921.97
100600	4959.56
100800	4809.58
101000	4159.41
101200	5233.46
101400	4989.59
101600	5256.58
101800	5399.69
102000	5805.83
102200	5633.56
102400	6273.22
102600	5909.05
102800	5382.22
103000	5266.93
103200	5004.44
103400	5411.98
103600	5665.47
103800	6221.51
104000	5641.07
104200	4806.39
104400	6389.58
104600	6873.75
104800	7183.27
105000	7109.05
105200	7486.17
105400	6790.95
105600	7223.61
105800	6885.36
106000	6645.2
106200	6112.19
106400	7114.68
106600	5766.47
106800	5649.31
107000	5016.61
107200	5836.22
107400	5897.53
107600	6046.32
107800	5626.88
108000	5958.9
108200	5767.56
108400	5345.07
108600	5249.49
108800	5463.14
109000	4934.69
109200	5178.69
109400	5145.61
109600	4765.2
109800	4754.98
110000	5619.76
110200	5189.58
110400	5923.22
110600	6082.07
110800	4677.31
111000	5649.22
111200	5627.37
111400	5310.25
111600	5564.39
111800	5615.88
112000	5780.34
112200	6717.41
112400	8476.64
112600	13617.2
112800	18128.4
113000	17371.1
113200	15359.7
113400	9421.61
113600	7953.97
113800	5960.86
114000	6219.02
114200	5964.75
114400	5535.83
114600	5712.58
114800	5608.9
115000	5708.53
115200	4834.24
115400	6494.59
115600	5047.9
115800	6557.29
116000	6029.97
116200	5531.29
116400	5352.46
116600	7289.9
116800	8199.53
117000	7407.98
117200	7549.49
117400	7318.56
117600	6501.98
117800	5812.19
118000	5162.88
118200	5044.07
118400	5206.29
118600	6235.22
118800	4700.81
119000	4607.03
119200	5098.27
119400	4185.54
119600	4201.22
119800	4532.07
120000	4240.97
120200	5241.88
120400	4681.36
120600	4950.68
120800	4467.9
121000	4885.32
121200	4108.34
121400	5481.81
121600	4782.9
121800	4454.36
122000	5339
122200	4711.09
122400	4764.37
122600	5227.83
122800	5237.29
123000	4304.76
123200	5510.54
123400	5933.27
123600	4773.2
123800	4668.22
124000	5031.24
124200	4572.24
124400	4765.03
124600	4063.22
124800	4234.29
125000	4728.07
125200	5325.58
125400	5316.09
125600	4201.54
125800	3686.73
126000	4648.17
126200	4688.61
126400	5214.37
126600	5483.9
126800	4848.95
127000	4949.36
127200	5946.98
127400	6177.03
127600	8399.81
127800	13461.5
128000	17380.4
128200	14043.2
128400	13350.6
128600	9483.97
128800	7562.47
129000	5319.03
129200	5837.29
129400	6722.61
129600	5560.85
129800	6002.34
130000	4931.69
130200	4937.17
130400	5531.32
130600	4569.44
130800	5483.37
131000	4674.1
131200	5814.42
131400	4761.78
131600	4377.1
131800	5395.75
132000	5238.9
132200	6223.78
132400	5198.22
132600	7089.85
132800	7014.39
133000	5564.39
133200	6549.36
133400	4800.9
133600	5779.59
133800	5525.31
134000	4843.22
134200	5918.47
134400	4661.46
134600	5028.12
134800	4350.03
135000	4923.58
135200	5199.32
135400	4946.58
135600	5634.02
135800	5493.88
136000	4528.02
136200	4739.12
136400	3989.53
136600	5273.2
136800	4798.46
137000	4930.78
137200	5870.98
137400	4798.24
137600	4907.68
137800	4318.09
138000	4588.88
138200	4742.44
138400	4244.24
138600	4984.15
138800	4341.95
139000	4342.31
139200	4349.75
139400	4771.09
139600	4232.63
139800	5360.46
140000	5132.24
140200	5127.42
140400	4626.02
140600	5027.49
140800	6004.12
141000	5221.42
141200	4773.07
141400	4689.12
141600	4466.75
141800	5034.46
142000	5119.19
142200	4046.86
142400	4363
142600	4449.22
142800	5683.8
143000	4937.17
143200	4947.53
143400	4689.51
143600	4639.34
143800	4579.17
144000	4440.29
144200	4799.76
144400	4996.8
144600	4144.03
144800	5211.02
145000	4980.73
145200	4605.61
145400	4993.66
145600	5258.69
145800	5171.8
146000	4589.24
146200	4237.58
146400	3910.46
146600	4454.19
146800	4904.61
147000	4351.22
147200	5020.17
147400	5266.51
147600	5446.42
147800	5755.97
148000	4701.59
148200	4931.46
148400	5498.85
148600	4507.02
148800	5346.97
149000	4722.53
149200	5381.81
149400	5430.9
149600	5389.02
149800	4558.68
150000	6509.2
150200	7936
150400	9041.02
150600	8100.85
150800	7332.9
151000	6654.98
151200	5891.22
151400	5185.97
151600	4659.29
151800	5447.24
152000	4867.93
152200	3403.61
152400	4813.27
152600	4151.71
152800	4796.66
153000	6019.41
153200	5489.09
153400	4461.8
153600	4755.91
153800	5386.02
154000	5604.71
154200	5390
154400	5409.91
154600	5107.91
154800	5098.39
155000	4479.51
155200	5823.31
155400	5150.78
155600	4540.71
155800	5194.71
156000	6224.86
156200	5015.61
156400	5270.12
156600	5581.34
156800	4486.05
157000	4800.03
157200	4869.53
157400	4984.27
157600	5171.8
157800	4485.36
158000	4254.83
158200	5194.75
158400	5434.95
158600	5057.29
158800	5819.98
159000	5429.22
159200	5277.12
159400	5046.83
159600	5006.93
159800	5413.03
160000	5788.36
160200	4514.14
160400	4714.51
160600	4967.32
160800	4991.47
161000	4063.83
161200	5062.32
161400	5673.49
161600	5992.93
161800	5508.09
162000	5375.98
162200	5976.49
162400	7689.07
162600	10783.8
162800	12233.6
163000	10972.9
163200	10776.7
163400	11157.5
163600	6879.02
163800	6508.15
164000	5099.44
164200	5934.51
164400	5514.27
164600	5584.32
164800	5015.1
165000	5905.03
165200	5341.88
165400	5309.64
165600	5122.56
165800	5677.41
166000	4870.64
166200	5960.58
166400	5347.31
166600	5985.9
166800	5709.02
167000	5069.75
167200	6047.29
167400	5719.56
167600	7147.63
167800	5961.29
168000	5914.03
168200	5667.17
168400	5663.29
168600	5429.32
168800	6365.37
169000	7504.05
169200	6217.51
169400	6219.19
169600	5835.69
169800	5723.03
170000	5804.61
170200	5550.76
170400	5341.68
170600	4337.66
170800	5136.81
171000	5679.31
171200	5542.36
171400	6040.98
171600	5118.31
171800	4384.95
172000	5256.22
172200	5776.61
172400	5175.36
172600	4874.1
172800	5230.78
173000	6257.47
173200	5524.98
173400	6112.47
173600	5302.07
173800	5713.46
174000	5052.59
174200	5561.53
174400	6101.61
174600	6597.32
174800	4879.19
175000	4499.75
175200	4884.03
175400	6079.14
175600	5108.51
175800	5625.95
176000	4562.15
176200	5898.58
176400	4949.32
176600	5418.25
176800	5143.36
177000	5148.24
177200	6405.51
177400	5556.07
177600	5885.42
177800	4931.12
178000	4719.76
178200	5087.51
178400	4976.36
178600	5005.27
178800	5668.46
179000	5839.32
179200	5613.63
179400	5869.03
179600	5534.07
179800	5759.69
180000	4586.81
180200	6002.44
180400	6082.63
180600	5633
180800	6081.36
181000	5860.64
181200	6643.12
181400	5974.73
181600	6390.14
181800	6106.07
182000	8747.22
182200	11415.3
182400	13298.4
182600	12925.5
182800	10464.7
183000	11036.4
183200	10547.9
183400	7978.81
183600	6762.88
183800	5920.34
184000	6018.07
184200	5915.76
184400	5557.83
184600	5644.63
184800	5431.54
185000	6494.07
185200	5406.56
185400	5298
185600	5648.71
185800	6369.03
186000	6330.61
186200	5987.1
186400	6290.71
186600	5999.2
186800	5929.59
187000	6277.88
187200	6055.29
187400	6054.85
187600	5417.12
187800	5262.81
188000	5481.1
188200	6095.49
188400	6090.47
188600	5346.27
188800	5668.73
189000	6269.98
189200	5989.47
189400	5991.25
189600	7342.09
189800	5812.83
190000	6741.98
190200	6673.91
190400	6785.07
190600	5734.53
190800	5623.97
191000	6290.1
191200	5957.68
191400	6262.19
191600	4926.58
191800	5703.32
192000	3914.64
192200	3695.27
192400	3796.32
192600	2903.07
192800	3605
193000	3156.83
193200	3275.37
193400	2732.69
193600	2128.51
193800	3001.41
194000	3143.85
194200	3313.22
194400	3477.66
194600	3038.25
194800	2989.95
195000	3058.69
195200	2672.24
195400	2980.8
195600	3488.19
195800	3309.07
196000	3673.92
196200	2487.63
196400	2843.17
196600	2828.29
196800	2905.63
197000	3194.22
197200	2804.37
197400	2974.92
197600	2416.98
197800	3256.22
198000	2635.88
198200	3075.83
198400	3146.25
198600	3258.59
198800	3230.15
199000	2808.31
199200	3598.69
199400	2381.73
199600	2677.47
199800	2201.73
200000	2165.34
200200	2392.22
200400	2555.44
200600	3047.88
200800	2934.46
201000	3417.75
201200	2251.95
201400	3193.98
201600	3231.66
201800	2623.75
202000	2581.1
202200	2270.8
202400	2024.73
202600	1705.73
202800	1740.9
203000	1263.88
203200	1381.37
203400	923.5932
203600	1202.51
203800	1369.69
203900	1372.15