File: V6_SAXS/data/profiles/Gunier_Polymer.txt
0	17138.2
200	17462.4
400	16808.1
600	17026
800	16916.9
1000	17092
1200	17291.7
1400	16826
1600	17356.8
1800	16663.5
2000	17273.6
2200	17693.7
2400	16954.3
2600	17019.9
2800	16617.4
3000	16756.9
3200	16471.5
3400	16764
3600	16603.6
3800	17302.4
4000	17387.2
4200	17014.8
4400	17385.8
4600	17454.4
4800	17032.9
5000	16647
5200	16891
5400	16293.1
5600	16993.5
5800	17468.8
6000	17089.6
6200	16406
6400	16885.5
6600	17094.7
6800	17012.8
7000	16675.8
7200	17137.7
7400	16523.7
7600	17362.7
7800	17094
8000	16615.1
8200	17244
8400	17291.6
8600	16390.2
8800	16848.7
9000	17283
9200	16675.8
9400	16651.2
9600	16457.4
9800	17222.3
10000	17211.1
10200	16977.9
10400	16726
10600	17528.7
10800	17134.8
11000	17563.2
11200	17452
11400	17754.8
11600	17870.7
11800	17658
12000	18078
12200	17560.7
12400	17541.3
12600	17811.4
12800	17786.6
13000	17992.1
13200	17563.1
13400	17434.6
13600	17868.8
13800	17496
14000	18025.7
14200	17926.5
14400	17988.3
14600	17850.4
14800	17702.1
15000	18139.4
15200	18139.6
15400	18607.4
15600	18235.7
15800	18080.7
16000	19258.9
16200	19542.2
16400	19332.7
16600	19384.2
16800	19593.6
17000	20174.3
17200	22230.1
17400	23639.2
17600	19346.1
17800	17911.3
18000	18162.3
18200	17868.8
18400	18264.9
18600	17947
18800	18125.3
19000	17753
19200	18085.6
19400	18555.9
19600	18379
19800	18158
20000	18512.2
20200	19337.8
20400	19189.3
20600	18998.1
20800	19470.3
21000	20055.9
21200	20234.5
21400	20648
21600	20992.1
21800	21297.4
22000	21688.6
22200	22323.3
22400	22720.8
22600	23726
22800	25710.4
23000	27165.1
23200	31587.9
23400	41833.3
23600	43406.6
23800	30510.1
24000	26116.2
24200	25358.9
24400	25213.5
24600	26911.7
24800	36270.9
25000	37592.1
25200	29026.9
25400	22510.9
25600	20325.6
25800	18821.5
26000	19274.2
26200	18580.5
26400	18487.7
26600	17844.5
26800	18356.8
27000	18309.6
27200	18035.7
27400	17748.4
27600	18345.1
27800	17850.2
28000	17987.6
28200	17856
28400	17712.2
28600	17865
28800	17621.5
29000	18318.9
29200	17913.7
29400	17841.3
29600	17784
29800	17051.8
30000	17223.4
30200	17958.9
30400	17060.2
30600	17372
30800	17220.5
31000	17102.2
31200	17363.5
31400	17206.2
31600	17809.9
31800	17077
32000	16953.7
32200	17240.6
32400	17008.3
32600	16847.4
32800	16382.4
33000	16445.6
33200	16604.2
33400	16817.7
33600	16430.9
33800	16272.3
34000	16591.7
34200	16817.5
34400	16610.1
34600	16409.7
34800	16687.9
35000	16544.6
35200	15930.9
35400	15959.1
35600	15391.4
35800	16017.4
36000	15813.5
36200	15377.2
36400	15742.2
36600	15961.5
36800	15367.4
37000	16496.9
37200	15606.6
37400	15771.6
37600	15087.7
37800	15090.4
38000	15606.7
38200	15111.8
38400	15242.7
38600	14991.5
38800	15147.1
39000	14983.5
39200	15083.7
39400	15180.4
39600	15104.5
39800	15257
40000	16423.6
40200	17020.6
40400	17022.1
40600	16828.9
40800	16635.4
41000	17084.1
41200	16319.3
41400	16359.2
41600	16667.3
41800	16216.6
42000	16576.4
42200	16791
42400	17122.4
42600	17106.6
42800	17109
43000	17463.4
43200	17353.2
43400	18428.9
43600	19014.9
43800	19078.9
44000	17647.4
44200	16902.3
44400	16417.1
44600	15933.9
44800	16231.1
45000	16372.3
45200	15922.6
45400	16490.6
45600	16791.6
45800	16991.2
46000	16624.8
46200	16295.1
46400	16258.1
46600	15573
46800	16159.3
47000	16695.5
47200	15878
47400	15829.2
47600	16134.1
47800	15731.8
48000	15982.7
48200	15751.3
48400	15904.8
48600	16093.3
48800	16234
49000	16323.5
49200	16131.5
49400	16075.2
49600	16406.5
49800	16066.5
50000	16098.9
50200	16487.4
50400	15954.4
50600	16960.4
50800	16383.4
51000	16502.3
51200	16359.3
51400	16463.3
51600	16149.1
51800	16795.3
52000	16347.7
52200	16909.3
52400	16446.8
52600	16656.8
52800	17382.3
53000	16573.2
53200	17073.7
53400	17078.8
53600	17422.1
53800	17274
54000	17441.2
54200	17393
54400	17448
54600	18091.6
54800	18188.3
55000	17735.1
55200	17746.9
55400	17886.3
55600	18455.4
55800	18347
56000	18310
56200	18342.4
56400	18707.8
56600	18780.1
56800	18929.4
57000	18822.2
57200	18907.5
57400	19386.9
57600	19164.1
57800	18822.3
58000	19388
58200	19582.5
58400	19749.8
58600	19956.3
58800	20583.9
59000	21408
59200	22385.6
59400	23327
59600	24679.9
59800	26109.4
60000	28097.5
60200	30292.1
60400	31724.3
60600	30984.5
60800	27526.7
61000	23795.3
61200	21198.9
61400	19871
61600	20024.8
61800	19692.7
62000	20302.3
62200	21043.8
62400	22976.6
62600	24636.8
62800	24600.9
63000	23446.6
63200	21071.3
63400	19723.2
63600	20291.9
63800	20838.8
64000	21915.7
64200	23390.1
64400	24794.1
64600	25470.1
64800	23856.2
65000	21628.2
65200	19235.3
65400	18193.9
65600	17443.5
65800	17532.5
66000	17677
66200	17487.9
66400	17668.1
66600	18432.6
66800	19427.1
67000	19676
67200	19107.9
67400	17979
67600	16844
67800	16162.1
68000	15825.2
68200	16102.8
68400	16041.9
68600	15263.1
68800	16232
69000	15732.6
69200	16346.1
69400	15824.1
69600	15827
69800	15885.7
70000	15943.1
70200	15930.2
70400	15935.8
70600	15794.5
70800	15413.5
71000	15934.8
71200	15842.7
71400	15787.9
71600	15712.6
71800	15243
72000	15862.7
72200	15277.6
72400	15638.8
72600	15924.8
72800	15078.6
73000	15312
73200	15481.6
73400	15954.1
73600	15596.4
73800	15657.4
74000	15439.9
74200	15675.8
74400	16017.9
74600	16265.4
74800	16262.3
75000	16526.9
75200	16588.3
75400	16854.6
75600	16063.9
75800	15538.4
76000	15574.8
76200	15337
76400	15431.4
76600	15424.9
76800	15413.3
77000	15752.9
77200	15895.1
77400	15739.3
77600	15819.7
77800	16301.4
78000	15842.7
78200	15454
78400	15252.8
78600	15108.8
78800	15503.8
79000	15172.1
79200	15535.6
79400	15276.1
79600	15271.2
79800	15369.4
80000	15334
80200	15377.6
80400	15073.1
80600	15096.9
80800	15182.2
81000	14846.1
81200	15051.3
81400	15044.1
81600	15117
81800	15298.2
82000	15441.5
82200	15432.9
82400	15723.6
82600	15503
82800	15340.3
83000	15365
83200	15427.9
83400	15501.1
83600	15943.3
83800	15201.8
84000	15400
84200	15646.7
84400	15630.8
84600	16233
84800	15990
85000	16132.5
85200	17275.9
85400	17879.5
85600	18333.4
85800	18106.4
86000	18063.2
86200	17532.6
86400	16437.6
86600	15993.3
86800	15667.1
87000	16195.5
87200	15244
87400	15734.3
87600	15551.1
87800	15547.7
88000	16382.2
88200	16192.3
88400	16553.2
88600	16780.7
88800	17194.8
89000	16502.1
89200	16664.8
89400	16311.8
89600	16634.7
89800	16105.8
90000	15537.3
90200	16730.8
90400	16208.7
90600	16762.9
90800	17053.6
91000	16508.3
91200	17063.8
91400	17758.4
91600	18399.4
91800	18469
92000	18033.9
92200	17556.3
92400	16743.3
92600	16714.9
92800	16985
93000	16898
93200	17383.4
93400	17671.1
93600	18206.8
93800	17771.2
94000	17003.7
94200	17137
94400	17099
94600	17780.8
94800	18210.1
95000	18335.4
95200	17932.4
95400	17542.6
95600	16711.8
95800	16989.6
96000	16645.1
96200	16267.5
96400	16840.9
96600	16906
96800	17380.7
97000	17713.2
97200	18012.9
97400	18495.2
97600	17956.1
97800	17835.5
98000	17142.8
98200	16602
98400	17160.3
98600	17339.1
98800	17101.5
99000	16914.1
99200	16118.6
99400	16532.1
99600	16594.6
99800	16407.8
100000	15818.2
100200	16215.4
100400	15815.3
100600	16629.2
100800	16833.2
101000	16439.8
101200	15921.1
101400	16097.2
101600	16278.6
101800	16470
102000	16339.6
102200	16034.7
102400	15951.4
102600	15891.8
102800	15935.3
103000	15923.3
103200	15830.7
103400	16377.7
103600	15964.4
103800	16525
104000	16753.4
104200	16921
104400	16811.2
104600	16572
104800	15795.9
105000	16041.6
105200	15606.3
105400	15990.2
105600	15344.5
105800	15978.3
106000	15993.3
106200	15430.1
106400	15324.3
106600	15718.5
106800	15281.8
107000	15612.9
107200	16047.2
107400	16030.9
107600	16391.2
107800	16305.7
108000	15453.2
108200	16206.4
108400	16031.3
108600	15768.6
108800	15051.8
109000	15455.4
109200	15174.4
109400	15647.3
109600	15356
109800	15338.3
110000	15556.2
110200	15610.7
110400	15799.3
110600	15213.9
110800	16190.5
111000	15815.9
111200	15262.6
111400	15622.2
111600	15674.9
111800	15857.3
112000	15597.4
112200	16125.7
112400	15864.6
112600	15565.6
112800	16262.4
113000	16185.5
113200	15988.7
113400	16700.2
113600	17122.9
113800	17172
114000	16897.3
114200	17385.7
114400	17418.4
114600	17851.9
114800	17216.6
115000	17027.3
115200	16792
115400	16568.9
115600	16071.5
115800	15731.1
116000	16143.1
116200	15233.7
116400	16057.2
116600	16474.7
116800	16207.4
117000	16018.4
117200	16144.7
117400	17071.4
117600	17288.1
117800	17023.3
118000	17435.9
118200	16825.7
118400	16912.1
118600	16817.6
118800	16670.8
119000	16322.7
119200	15935.8
119400	16005.1
119600	15906.5
119800	15934
120000	16030.5
120200	15144.3
120400	15913.4
120600	15777
120800	15588.5
121000	15792.6
121200	16184.1
121400	16445.1
121600	16361.5
121800	16267.2
122000	16564.2
122200	16727.4
122400	16534.9
122600	16254.8
122800	16160.6
123000	15418.4
123200	15916.9
123400	15705.2
123600	15696.1
123800	15937.9
124000	15593.1
124200	15828.7
124400	15745.4
124600	15540.3
124800	15659.1
125000	15459.4
125200	15255.1
125400	15545.4
125600	15331.6
125800	15837.9
126000	15430.2
126200	15904.1
126400	15275.9
126600	15590.3
126800	16254.8
127000	16088.3
127200	15562
127400	15673.9
127600	15422.8
127800	16153.3
128000	15341.8
128200	15749.2
128400	15818.5
128600	15911.6
128800	15784.8
129000	15104.1
129200	16203.3
129400	16333.4
129600	16132.4
129800	16054.7
130000	15845.4
130200	16009.5
130400	15997.6
130600	16164.2
130800	15878.3
131000	14771.2
131200	15418.7
131400	15878.9
131600	15737.5
131800	15633.5
132000	15186.5
132200	15290.8
132400	15258
132600	15433.9
132800	15948.2
133000	15677.1
133200	15283.1
133400	16173
133600	15507.8
133800	16136.7
134000	15918.6
134200	16591.7
134400	16271.5
134600	15818.4
134800	16398.7
135000	15949.6
135200	15968.9
135400	15983.4
135600	15333.1
135800	15399.1
136000	15397.3
136200	15976.9
136400	15766
136600	15940
136800	15418.4
137000	15845.4
137200	15180.1
137400	15392.9
137600	15880.9
137800	15634.8
138000	15600.4
138200	15532.6
138400	15604.5
138600	15060.2
138800	15670
139000	15747.3
139200	15332.8
139400	15468
139600	16209.6
139800	15420.2
140000	16171.3
140200	15607.6
140400	15526.2
140600	15541
140800	15577.2
141000	15697.7
141200	15663.6
141400	15811.2
141600	15580.9
141800	15737.1
142000	15950.4
142200	15903.3
142400	15505.1
142600	15128.1
142800	15726.1
143000	15277.6
143200	15884.3
143400	15364.2
143600	15706.8
143800	15749.7
144000	15590.1
144200	15643.4
144400	15663.9
144600	14937
144800	15903.2
145000	16039.4
145200	15937.7
145400	15386.1
145600	15737.3
145800	15796.4
146000	16214.4
146200	15560.5
146400	16026.8
146600	16048.8
146800	15623
147000	15250.2
147200	15604.9
147400	15557.1
147600	15909.2
147800	15498.5
148000	16136.8
148200	15650
148400	15813.9
148600	16040.2
148800	15851.6
149000	15522.9
149200	15612.9
149400	16137.8
149600	16070.4
149800	15832.2
150000	15803.7
150200	15415.2
150400	16076.4
150600	16521.4
150800	16169.4
151000	16269.5
151200	16541.9
151400	16347.9
151600	15987.9
151800	15921.4
152000	16118.5
152200	16087.6
152400	15893
152600	15386.3
152800	15971.2
153000	15545.5
153200	16026
153400	15788.3
153600	15357.8
153800	15565.5
154000	15829.1
154200	15920.5
154400	15775.4
154600	15881.6
154800	16363
155000	16368.7
155200	15774.6
155400	16172.3
155600	15944.3
155800	16311.1
156000	15910.4
156200	16241.5
156400	16153.7
156600	16402.5
156800	16496.2
157000	16001.2
157200	16341.8
157400	16362.7
157600	16766.1
157800	16729.5
158000	16346.2
158200	16486.5
158400	16517
158600	16858.2
158800	16898.4
159000	16556.3
159200	16765.3
159400	15949.5
159600	16271.7
159800	15647
160000	16302.4
160200	16296.7
160400	16027.5
160600	16068.3
160800	16092.6
161000	15738.3
161200	15292.6
161400	15893
161600	15816.5
161800	16381.8
162000	15866
162200	16181.3
162400	15680
162600	16216.1
162800	16156.5
163000	15839.2
163200	15717.9
163400	16247.3
163600	16067
163800	15782
164000	15958.7
164200	16018.1
164400	16046.8
164600	16009.7
164800	16069.8
165000	16076.7
165200	15725.4
165400	16163.2
165600	15930.6
165800	15901.4
166000	16066
166200	16128.8
166400	15455.9
166600	15781.1
166800	15446.3
167000	15363.4
167200	15218.3
167400	15716.4
167600	16017.4
167800	15556
168000	15817.3
168200	15511
168400	16436.7
168600	16208.1
168800	15854.5
169000	15710.6
169200	15369.4
169400	15864.3
169600	16218.3
169800	16103.7
170000	16261.5
170200	16032.1
170400	16241.3
170600	16070.8
170800	15881.8
171000	16329.7
171200	15946.3
171400	15597.4
171600	15943.1
171800	15872.4
172000	15851.2
172200	16094.2
172400	15844.3
172600	15887.3
172800	15935.2
173000	15790.4
173200	15675.7
173400	16267.7
173600	15938.2
173800	16400.9
174000	16248.5
174200	16479
174400	16404.7
174600	16432.8
174800	16126.8
175000	16536.7
175200	16035
175400	16495.9
175600	16320.3
175800	15957.4
176000	16030.9
176200	16135.4
176400	16091.3
176600	16022.8
176800	15590.9
177000	15471.9
177200	15780.8
177400	15955.8
177600	15743.7
177800	15716.9
178000	16440.7
178200	16461.7
178400	16333.6
178600	15924.2
178800	15966.1
179000	16401.1
179200	16245.4
179400	16386.4
179600	16572
179800	15938.6
180000	16184.3
180200	16381.8
180400	15577.4
180600	15729.2
180800	15927.7
181000	15803.6
181200	16084.1
181400	16183.6
181600	15697.6
181800	15906
182000	15941.7
182200	16479.9
182400	16479.9
182600	16458.3
182800	16180
183000	16342.6
183200	16105.7
183400	16146.9
183600	16272.2
183800	16056.6
184000	16211.9
184200	15054.9